Standard_Name		
NIST 2710		
Density(mg/cm^3)	Mass(mg)	Sample_thickness(micron)
2200	0	1000
Number of elements		
48		
Z	Cert conc(ppm)	Standard_error(ppm)
6	30000	0
8	504326	0
11	11400	600
12	8530	420
13	64400	800
14	289700	1800
15	1060	150
16	2400	60
19	21100	1100
20	12500	300
21	8.7	0
22	2830	100
23	76.6	2.3
24	39	0
26	33800	1000
27	10	0
28	14.3	1
29	2950	130
30	6952	91
31	34	0
33	626	38
35	6	0
37	120	0
38	330	0
39	23	0
42	19	0
47	35.3	1.5
48	21.8	0.2
49	5.1	0
51	38.4	3
55	107	0
56	707	51
57	34	0
58	57	0
60	23	0
62	7.8	0
63	1	0
66	5.4	0
67	0.6	0
70	1.3	0
72	3.2	0
74	93	0
79	0.6	0
80	32.6	1.8
81	1.3	0
82	5532	80
90	13	0
92	25	0
		
Notes		
Certified values for Al, Ca, Fe, Mg, Mn, P, K, Si, Na, S, Ti, Sb, As, Ba, Cd, Cu, Pb, Hg, Ni, Ag, V, Zn		
Information values for C, Br, Ce, Cs, Cr, Co, Dy, Eu, Ga, Au, Hf, Ho, In, La, Mo, Nd, Rb, Sm, Sc, Sr, Tl, Th, W, U, Yb, Y		
Matrix filled with O up to 1M ppm		
