Standard_Name		
NIST 2711a		
Density(mg/cm^3)	Mass(mg)	Sample_thickness(micron)
2200	0	1000
Number of elements		
45		
Z	Cert conc(ppm)	Standard_error(ppm)
5	50	0
8	804646.35	0
12	10700	600
13	67200	600
14	31400	7000
15	842	11
19	25300	1000
20	24200	600
21	8.5	0.1
22	3170	80
23	80.7	5.7
24	52.3	2.9
25	675	18
26	28200	400
27	9.89	0.18
28	21.7	0.7
29	140	2
30	414	11
33	107	5
34	2	0
37	120	3
38	242	10
47	6	0
48	54.1	0.5
49	1	0
51	23.8	1.4
55	6.7	0.2
56	730	15
57	38	1
58	70	0
60	29	2
62	5.93	0.28
63	1.1	0.2
64	5	0
65	0.8	0
66	5	0
70	3	0
71	0.5	0
72	9.2	0.2
73	1	0
80	7.42	0.18
81	3	0
82	1400	10
90	15	1
92	3.01	0.12
		
Notes		
Certified values for Al, Ca, Fe, Pb, Mg, K, Si, Na, Ti, Sb, As, Ba, Cd, Cr, Co, Cu, Mn, Hg, Ni, P, Sm, Sr, U, V, Zn		
Information values for Cs, Eu, Hf, La, Nd, Rb, Sc, Th		
Matrix filled with O up to 1M ppm		
