Standard_Name		
NIST 2711		
Density(mg/cm^3)	Mass(mg)	Sample_thickness(micron)
2200	0	1000
Number of elements		
52		
Z	Cert conc(ppm)	Standard_error(ppm)
6	20000	0
8	497695.1	0
11	11400	300
12	10500	300
13	65300	900
14	304400	1900
15	860	70
16	420	10
19	24500	800
20	28800	800
21	9	0
22	3060	230
23	81.6	2.9
24	47	0
25	638	28
26	28900	600
27	10	0
28	20.6	1.1
29	114	2
30	350.4	4.8
31	15	0
33	105	8
34	1.52	0.14
35	5	0
37	110	0
38	245.3	0.7
39	25	0
40	230	0
42	1.6	0
47	4.63	0.39
48	41.7	0.25
49	1.1	0
51	19.4	1.8
53	3	0
55	6.1	0
56	726	38
57	40	0
58	69	0
60	31	0
62	5.9	0
63	1.1	0
66	5.6	0
67	1	0
70	2.7	0
72	7.3	0
74	3	0
79	0.03	0
80	6.25	0.19
81	2.47	0.15
82	1162	31
90	14	0
92	2.6	0
		
Notes		
Certified values for Al, Ca, Fe, Mg, Mn, P, K, Si, Na, S, Ti, Sb, As, Ba, Cd, Cu, Pb, Mn, Hg, Ni, Se, Ag, Sr, Tl, V, Zn		
Information values for C, Br, Ce, Cs, Cr, Co, Dy, Eu, Ga, Au, Hf, Ho, In, I, La, Mo, Nd, Rb, Sm, Sc, Th, W, U, Yb, Y, Zr		
Matrix filled with O up to 1M ppm		
